Description of reference image: The subject is a silver 1970s Datsun 240Z convertible, positioned at a three-quarter front angle in an indoor car show environment. The car features a sleek, elongated hood with a chrome grille and "DATSUN" badge centered on the front fascia. The headlights are round and prominent, flanked by amber turn signals. The front bumper is chrome with integrated fog lights and a protective guard. The side profile displays a long hood, short rear deck, and "DATSUN 240Z" script along the fender line. The car has black soft-top roof folded down, exposed roll bar, and black bucket seats visible through the windshield. It features steel wheels with chrome hubcaps and whitewall tires. A white auction tag labeled "T51" is affixed to the windshield. In the background, a red Mini Cooper is partially visible to the left, and other vintage vehicles are scattered across a polished concrete floor under bright overhead lighting. The setting includes typical auto show elements such as price tags, display stands, and reflections on the floor.

Thinking process:  
First, analyze the editing instructions word by word:  
- “Transform the classic car into a premium whiskey decanter design” → This indicates the **entire form** of the car will be replaced with a decanter shape; thus, the original physical structure of the car (body, wheels, etc.) is not required to remain.  
- “Convert the body into a sleek, silver glass bottle reflecting the car’s curves” → The **overall silhouette** and **curved lines** of the car are to be preserved in form but transformed into a bottle. This implies that **the iconic shape** of the Datsun 240Z—specifically its long hood, sloping roofline, and proportions—is **allowed to be reinterpreted** but must retain visual continuity.  
- “Replace headlights with faceted glass stoppers” → The **headlights** are explicitly changed, so they are no longer functional or present in their original form.  
- “Add a chrome-finish, gear-shaped lid” → A new element is introduced, replacing the top of the car or soft-top; this is a change allowed by instruction.  
- “Emboss the model’s emblem onto the front” → The **emblem** ("DATSUN") must be preserved, though now embossed on the bottle. This means the **brand name** must remain visible and recognizable.  
- “Incorporating vintage style with modern branding elements” → Style can be modified, so aesthetic tone is flexible.  

The scene is not mentioned as needing retention—only the transformation of the car. Therefore, the **background** (other cars, floor, lighting) is **not required to be preserved**, unless it contributes to identity or context.

Allowed Changes List:  
- Car body → transformed into a glass decanter  
- Headlights → replaced with faceted glass stoppers  
- Soft-top and interior → replaced with lid and internal structure of a decanter  
- Wheels → removed or replaced with base of bottle  
- Roof and roll bar → replaced with gear-shaped lid  
- Overall form → altered into a bottle while preserving curve profiles  
- Scene (background, floor, other cars) → may be altered or removed  

Step 2 – Determine the elements that should remain unchanged  
Thinking process:  
Core recognition elements:  
- The **"DATSUN" name** on the front grille is a core brand identifier. Even if transformed into an embossed logo, it must remain readable and positioned where the original badge was. Without it, the vehicle's identity is lost.  
- The **"240Z" script** on the side fender is a key model identifier. Though the instruction says "emboss the model’s emblem," this likely refers to the full model designation. Thus, the **"240Z" text** must be preserved in some form.  
- The **overall silhouette** of the car—long hood, short rear, flowing lines—is described as being reflected in the bottle’s curves. This means the **proportional shape** of the car must be retained in the decanter form. This is not a literal retention but a structural mimicry. Since the instruction mandates that the bottle reflects the car’s curves, the **shape relationship** is preserved in form, even if material changes.  
- The **chrome grille** and **grille pattern** are distinctive to the Datsun 240Z and contribute to its identity. While the grille may become part of the bottle's neck or base, the **vertical slat pattern** must be referenced.  
- The **position of the emblem** (front center) must be maintained for brand recognition.  

Functional/logical association elements:  
- The **relationship between the car and its brand** is essential. The "DATSUN" and "240Z" labels are not just decoration—they define the car’s identity. Changing them would make the object unrecognizable as a Datsun 240Z derivative.  
- The **placement of the model designation** on the side fender is a standard automotive branding convention. Moving it drastically would break logical consistency with the original design.  

Non-modified element deduction:  
After excluding allowed changes (body, wheels, roof, headlights), the remaining elements that are not mentioned for modification but are visually present include:  
- The **"DATSUN" badge** on the front  
- The **"240Z" script** on the side  
- The **general proportion and flow** of the car’s body (to be mirrored in the bottle)  
- The **chrome trim** around the grille and bumpers (may be abstracted into the bottle's rim or neck)  
- The **location of the emblem** (front center)  

These must be preserved in form or position due to their role in identification and branding.

Preservation Targets List:  
- The presence and placement of the "DATSUN" badge on the front grille  
- The presence and placement of the "240Z" script on the side fender  
- The overall proportional silhouette of the car (long hood, short rear, curved lines)  
- The vertical grille slat pattern  
- The central positioning of the brand emblem on the front  

{
    Q1: 
    Thinking process: The "DATSUN" badge is the primary brand identifier of the vehicle and appears centrally on the front grille. Its presence and position are critical to recognizing the car as a Datsun. Even when transformed into an embossed design on a decanter, the text must remain legible and in the same relative location to maintain identity. Losing this would make the object unidentifiable as a Datsun product, making it a core identity element.
    Question: Is the "DATSUN" text visibly present and centered on the front of the decanter?
    Choices: Yes, No
    A: Yes
    Weight: 3
}

{
    Q2: 
    Thinking process: The "240Z" script on the side fender is a unique model identifier specific to this car variant. It distinguishes it from other Datsun models. The instruction specifies embedding the model’s emblem, which includes this text. Removing or relocating it would misrepresent the model, so its presence and approximate location on the side must be preserved.
    Question: Is the "240Z" script visible on the side of the decanter near the front wheel well?
    Choices: Yes, No
    A: Yes
    Weight: 3
}

{
    Q3: 
    Thinking process: The overall silhouette of the Datsun 240Z—characterized by a long hood, low roofline, and compact rear—is what makes it visually distinct among classic sports cars. The instruction states the bottle should reflect the car’s curves, meaning the general shape must be preserved. If the bottle lacks these proportions, it fails to represent the original car accurately.
    Question: Does the decanter maintain the long hood and short rear deck proportions of the original car?
    Choices: Yes, No
    A: Yes
    Weight: 3
}

{
    Q4: 
    Thinking process: The vertical slat grille is a signature design feature of the Datsun 240Z, contributing to its front-end identity. Although the grille may be stylized into the bottle’s neck or base, the pattern must still be recognizable. Preserving this texture ensures the design remains faithful to the original car’s aesthetic.
    Question: Are vertical slats visible on the front of the decanter, mimicking the original grille pattern?
    Choices: Yes, No
    A: Yes
    Weight: 2
}

{
    Q5: 
    Thinking process: The central placement of the brand emblem on the front is a consistent design choice across Datsun vehicles. Even in transformation, maintaining this spatial relationship ensures correct brand representation. If the emblem is moved to the side or top, it breaks the expected visual logic of the original car.
    Question: Is the "DATSUN" emblem positioned centrally on the front face of the decanter?
    Choices: Yes, No
    A: Yes
    Weight: 2
}
}